File: resources/DSC_NH4Cl_refined_10.0K_min.csv
#EXPORTTYPE:                 ;DATA COMPARE
#FILE:                       ;26.07.23_NH4Cl_��_10kmin_30-500�.ngb-ds5
#FORMAT:                     ;NETZSCH5
#FTYPE:                      ;ANSI
#IDENTITY:                   ;NH4Cl_��
#DECIMAL:                    ;COMMA
#SEPARATOR:                  ;SEMICOLON
#MTYPE:                      ;DSC
#INSTRUMENT:                 ;NETZSCH STA 449F5
#PROJECT:                    ;
#DATE/TIME:                  ;26.07.2023 10:30:10 (UTC+3)
#CORR. FILE:                 ;29.04.22_correction for composite-10kmin_30+500_N2-120.ngb-bs5
#TEMPCAL:                    ;10kmin-N2_washer+Al2O3+cover.ngb-ts5
#SENSITIVITY:                ;10kmin-N2_washer+Al2O3+cover.ngb-ts5.ngb-es5
#LABORATORY:                 ;
#OPERATOR:                   ;
#REMARK:                     ;
#SAMPLE:                     ;1
#SAMPLE MASS /mg:            ;23,8825
#MATERIAL:                   ;
#REFERENCE:                  ;
#REFERENCE MASS /mg:         ;0
#TYPE OF CRUCIBLE:           ;DSC/TG pan Al2O3
#SAMPLE CRUCIBLE MASS /mg:   ;0
#REFERENCE CRUCIBLE MASS /mg:;0
#DSC RANGE /�V:              ;5000
#TG RANGE /mg:               ;35000
#TAU-R:                      ;---
#CORR. CODE:                 ;020
#EXO:                        ;+1
#RANGE:                      ;30�C/10,0(K/min)/500�C
#SEGMENT:                    ;S1/1
#SEG. 1:                     ;30�C/10,0(K/min)/500�C

##Temp./�C;DSC/(mW/mg)
30,27800;-1,177243e-002
44.60172;-0.15056
45.55664;-0.15712
46.51155;-0.16383
47.46647;-0.16985
48.42138;-0.17546
49.3763;-0.18158
50.33121;-0.18657
51.28613;-0.19179
52.24104;-0.19698
53.19596;-0.20188
54.15087;-0.20663
55.10579;-0.21164
56.0607;-0.21607
57.01562;-0.22051
57.97053;-0.22457
58.92545;-0.22896
59.88036;-0.23265
60.83528;-0.23658
61.79019;-0.24022
62.74511;-0.24406
63.70002;-0.2473
64.65494;-0.25051
65.60985;-0.25406
66.56477;-0.2575
67.51968;-0.25976
68.4746;-0.26335
69.42951;-0.26599
70.38443;-0.26901
71.33934;-0.27179
72.29426;-0.27443
73.24917;-0.27637
74.20409;-0.27878
75.159;-0.28132
76.11392;-0.28315
77.06883;-0.28542
78.02375;-0.28742
78.97866;-0.28941
79.93358;-0.291
80.88849;-0.29277
81.84341;-0.29462
82.79832;-0.29653
83.75324;-0.29792
84.70815;-0.2994
85.66307;-0.30085
86.61798;-0.30204
87.5729;-0.30356
88.52781;-0.3051
89.48273;-0.30623
90.43764;-0.30687
91.39256;-0.30786
92.34747;-0.30868
93.30239;-0.30934
94.2573;-0.3102
95.21222;-0.31084
96.16713;-0.31202
97.12205;-0.3127
98.07696;-0.31318
99.03188;-0.3135
99.98679;-0.31393
100.942;-0.31469
101.897;-0.31487
102.852;-0.31461
103.806;-0.31509
104.761;-0.31523
105.716;-0.3157
106.6712;-0.31566
107.626;-0.31528
108.581;-0.3153
109.536;-0.31571
110.491;-0.31575
111.446;-0.31561
112.401;-0.31532
113.3556;-0.31519
114.311;-0.31524
115.265;-0.31488
116.22;-0.31454
117.175;-0.31446
118.13;-0.31377
119.085;-0.3142
120.04;-0.31316
120.995;-0.31249
121.95;-0.31228
122.905;-0.31213
123.86;-0.31076
124.815;-0.31019
125.7695;-0.30981
126.724;-0.30913
127.679;-0.30802
128.634;-0.30726
129.589;-0.30644
130.544;-0.30572
131.499;-0.30509
132.4539;-0.30429
133.409;-0.3033
134.364;-0.30243
135.319;-0.30117
136.274;-0.3004
137.228;-0.29897
138.183;-0.29855
139.138;-0.29733
140.093;-0.29632
141.048;-0.29514
142.003;-0.29436
142.958;-0.29277
143.913;-0.29187
144.8678;-0.29068
145.823;-0.28943
146.778;-0.28821
147.733;-0.28718
148.687;-0.28583
149.642;-0.28495
150.597;-0.28377
151.5522;-0.28248
152.507;-0.28125
153.462;-0.27984
154.417;-0.27869
155.372;-0.27732
156.327;-0.27634
157.282;-0.27496
158.237;-0.27326
159.192;-0.27193
160.146;-0.27053
161.101;-0.26921
162.056;-0.26841
163.011;-0.26696
163.9661;-0.26555
164.921;-0.26385
165.876;-0.26298
166.831;-0.26126
167.786;-0.26046
168.741;-0.25915
169.696;-0.25781
170.6505;-0.25635
171.605;-0.25516
172.56;-0.25375
173.515;-0.25276
174.47;-0.25124
175.425;-0.24999
176.38;-0.24889
177.335;-0.2479
178.29;-0.24676
179.245;-0.24533
180.2;-0.24399
181.155;-0.24268
182.109;-0.2413
183.0644;-0.23992
184.019;-0.2395
184.974;-0.2388
185.929;-0.23892
186.884;-0.24128
187.839;-0.2506
188.794;-0.27073
189.7488;-0.30839
190.704;-0.35348
191.659;-0.40756
192.614;-0.46323
193.568;-0.52946
194.523;-0.60224
195.478;-0.66799
196.433;-0.71192
197.388;-0.752
198.343;-0.78038
199.298;-0.78891
200.253;-0.78616
201.208;-0.75772
202.1627;-0.72165
203.118;-0.68249
204.073;-0.63257
205.027;-0.57831
205.982;-0.52791
206.937;-0.48116
207.892;-0.44011
208.8471;-0.40366
209.802;-0.37182
210.757;-0.34308
211.712;-0.3187
212.667;-0.29722
213.622;-0.27787
214.577;-0.26126
215.532;-0.2467
216.486;-0.23376
217.441;-0.22329
218.396;-0.2138
219.351;-0.2065
220.306;-0.2003
221.261;-0.19458
222.216;-0.1893
223.171;-0.18571
224.126;-0.1825
225.081;-0.18082
226.036;-0.17881
226.99;-0.17794
227.9454;-0.17752
228.9;-0.17719
229.855;-0.17792
230.81;-0.17882
231.765;-0.18014
232.72;-0.18192
233.675;-0.18476
234.63;-0.18675
235.585;-0.19009
236.54;-0.19292
237.495;-0.19642
238.449;-0.20019
239.404;-0.20467
240.3593;-0.20889
241.314;-0.21383
242.269;-0.21831
243.224;-0.22385
244.179;-0.22906
245.134;-0.23482
246.089;-0.24134
247.0437;-0.24744
247.999;-0.25462
248.954;-0.26144
249.908;-0.26835
250.863;-0.27617
251.818;-0.28421
252.773;-0.29218
253.728;-0.30108
254.683;-0.30965
255.638;-0.3185
256.593;-0.32866
257.548;-0.33844
258.503;-0.34855
259.4576;-0.35885
260.413;-0.3703
261.367;-0.38114
262.322;-0.39323
263.277;-0.40537
264.232;-0.41791
265.187;-0.43093
266.142;-0.44472
267.097;-0.45815
268.052;-0.47305
269.007;-0.48738
269.962;-0.50298
270.917;-0.51895
271.871;-0.53528
272.826;-0.55193
273.781;-0.56968
274.736;-0.5881
275.691;-0.60668
276.646;-0.62594
277.601;-0.64633
278.5559;-0.6664
279.511;-0.68754
280.466;-0.70975
281.421;-0.73227
282.376;-0.7556
283.33;-0.77961
284.285;-0.80397
285.2403;-0.82959
286.195;-0.85545
287.15;-0.88239
288.105;-0.91024
289.06;-0.93874
290.015;-0.9676
290.97;-0.99768
291.925;-1.02829
292.88;-1.0602
293.835;-1.09104
294.789;-1.12658
295.744;-1.16088
296.699;-1.19605
297.6542;-1.23243
298.609;-1.26917
299.564;-1.30708
300.519;-1.34722
301.474;-1.38699
302.429;-1.42835
303.384;-1.46972
304.3386;-1.51284
305.294;-1.5571
306.248;-1.60235
307.203;-1.64891
308.158;-1.69633
309.113;-1.74431
310.068;-1.79273
311.023;-1.84332
311.978;-1.89432
312.933;-1.94599
313.888;-1.99879
314.843;-2.05415
315.798;-2.10944
316.7525;-2.16636
317.707;-2.22506
318.662;-2.28426
319.617;-2.34462
320.572;-2.40605
321.527;-2.46623
322.482;-2.52625
323.4369;-2.58732
324.392;-2.64975
325.347;-2.7108
326.302;-2.7736
327.257;-2.8365
328.211;-2.90145
329.166;-2.96747
330.121;-3.03125
331.076;-3.09851
332.031;-3.16613
332.986;-3.2366
333.941;-3.30675
334.896;-3.37618
335.8508;-3.44078
336.806;-3.50114
337.761;-3.56018
338.716;-3.61909
339.67;-3.67698
340.625;-3.74071
341.58;-3.7996
342.5352;-3.86645
343.49;-3.92966
344.445;-3.99606
345.4;-4.06579
346.355;-4.12965
347.31;-4.1923
348.265;-4.25329
349.22;-4.32092
350.175;-4.3948
351.129;-4.46764
352.084;-4.54756
353.039;-4.61465
353.994;-4.67056
354.9491;-4.70977
355.904;-4.74368
356.859;-4.78699
357.814;-4.84221
358.769;-4.90602
359.724;-4.95105
360.679;-4.99695
361.6335;-5.04814
362.588;-5.09709
363.543;-5.13629
364.498;-5.1767
365.453;-5.18929
366.408;-5.19029
367.363;-5.17127
368.318;-5.13687
369.273;-5.08221
370.228;-4.99878
371.183;-4.87879
372.138;-4.69498
373.092;-4.40335
374.0474;-4.04603
375.002;-3.54245
375.957;-2.95773
376.912;-2.52478
377.867;-2.17148
378.822;-1.88111
379.777;-1.63848
380.7318;-1.43605
381.687;-1.25917
382.642;-1.1129
383.597;-0.98936
384.551;-0.88099
385.506;-0.79101
386.461;-0.71694
387.416;-0.65324
388.371;-0.5991
389.326;-0.55432
390.281;-0.51664
391.236;-0.48585
392.191;-0.46007
393.1457;-0.43926
394.101;-0.42214
395.056;-0.40815
396.01;-0.39639
396.965;-0.38752
397.92;-0.38025
398.875;-0.37434
399.8301;-0.36947
400.785;-0.36636
401.74;-0.36363
402.695;-0.36165
403.65;-0.35984
404.605;-0.3598
405.56;-0.35876
406.515;-0.35882
407.469;-0.35878
408.424;-0.35953
409.379;-0.35954
410.334;-0.36033
411.289;-0.36054
412.244;-0.36212
413.199;-0.36329
414.154;-0.36427
415.109;-0.36552
416.064;-0.36678
417.019;-0.36809
417.973;-0.36929
418.9284;-0.37154
419.883;-0.37324
420.838;-0.37532
421.793;-0.3768
422.748;-0.37828
423.703;-0.38029
424.658;-0.3819
425.613;-0.38372
426.568;-0.38604
427.523;-0.38837
428.478;-0.39081
429.432;-0.39252
430.387;-0.39499
431.3423;-0.39672
432.297;-0.39922
433.252;-0.40194
434.207;-0.40443
435.162;-0.40747
436.117;-0.40978
437.072;-0.41297
438.0267;-0.41564
438.982;-0.41901
439.937;-0.42219
440.891;-0.42524
441.846;-0.4287
442.801;-0.43206
443.756;-0.43495
444.711;-0.4391
445.666;-0.44237
446.621;-0.44616
447.576;-0.44987
448.531;-0.45324
449.486;-0.4577
450.4406;-0.46136
451.396;-0.46461
452.35;-0.46774
453.305;-0.4718
454.26;-0.47524
455.215;-0.47809
456.17;-0.48161
457.125;-0.48443
458.08;-0.48721
459.035;-0.48955
459.99;-0.4925
460.945;-0.49434
461.9;-0.49617
462.854;-0.498
463.809;-0.4994
464.764;-0.5005
465.719;-0.50125
466.674;-0.50271
467.629;-0.50331
468.584;-0.50361
469.5389;-0.50441
470.494;-0.50468
471.449;-0.505
472.404;-0.50594
473.359;-0.50637
474.313;-0.50638
475.268;-0.50676
476.2233;-0.50709
477.178;-0.50819
478.133;-0.50836
479.088;-0.50875
480.043;-0.50941
480.998;-0.51019
481.953;-0.51044
482.908;-0.51111
483.863;-0.51176
484.818;-0.51251
485.772;-0.51358
486.727;-0.51429
487.682;-0.51515
488.6372;-0.51629
489.592;-0.51694
490.547;-0.5185
491.502;-0.51973
492.457;-0.52045
493.412;-0.52154
494.367;-0.52311
495.3216;-0.52407
496.277;-0.52478
497.231;-0.52478
498.186;-0.52478